20ms
0ms
NA
NA
Counts
12/1/2022 9:46:21 PM
100.00000000
0.00000000
Resolution=0&-1
Time1=20ms:Average1=100:Objective=NA:Aperture=NA: (12/1/2022 9:46:21 PM)
350.27729971	350.71898553	351.16066216	351.60232959	352.04398778	352.48563672	352.92727640	353.36890678	353.81052784	354.25213958	354.69374196	355.13533496	355.57691857	356.01849276	356.46005751	356.90161280	357.34315861	357.78469491	358.22622170	358.66773894	359.10924662	359.55074471	359.99223319	360.43371205	360.87518126	361.31664080	361.75809064	362.19953078	362.64096119	363.08238184	363.52379271	363.96519379	364.40658506	364.84796649	365.28933806	365.73069974	366.17205153	366.61339340	367.05472533	367.49604729	367.93735927	368.37866124	368.81995319	369.26123509	369.70250692	370.14376867	370.58502030	371.02626180	371.46749315	371.90871433	372.34992531	372.79112608	373.23231661	373.67349688	374.11466688	374.55582658	374.99697596	375.43811500	375.87924367	376.32036196	376.76146985	377.20256732	377.64365434	378.08473089	378.52579695	378.96685251	379.40789754	379.84893201	380.28995592	380.73096923	381.17197193	381.61296399	382.05394540	382.49491613	382.93587616	383.37682548	383.81776406	384.25869187	384.69960891	385.14051514	385.58141055	386.02229511	386.46316881	386.90403163	387.34488353	387.78572451	388.22655454	388.66737360	389.10818167	389.54897872	389.98976475	390.43053971	390.87130361	391.31205640	391.75279809	392.19352863	392.63424801	393.07495621	393.51565322	393.95633900	394.39701354	394.83767681	395.27832880	395.71896948	396.15959884	396.60021685	397.04082349	397.48141874	397.92200258	398.36257499	398.80313595	399.24368543	399.68422342	400.12474989	400.56526482	401.00576820	401.44626000	401.88674020	402.32720878	402.76766572	403.20811100	403.64854459	404.08896648	404.52937664	404.96977506	405.41016171	405.85053657	406.29089962	406.73125084	407.17159021	407.61191771	408.05223331	408.49253700	408.93282876	409.37310856	409.81337638	410.25363221	410.69387601	411.13410778	411.57432748	412.01453511	412.45473063	412.89491402	413.33508527	413.77524436	414.21539126	414.65552595	415.09564841	415.53575862	415.97585656	416.41594221	416.85601555	417.29607655	417.73612520	418.17616148	418.61618535	419.05619681	419.49619583	419.93618239	420.37615647	420.81611805	421.25606711	421.69600362	422.13592757	422.57583893	423.01573769	423.45562382	423.89549730	424.33535811	424.77520623	425.21504164	425.65486432	426.09467425	426.53447140	426.97425575	427.41402729	427.85378599	428.29353184	428.73326480	429.17298487	429.61269201	430.05238621	430.49206745	430.93173570	431.37139095	431.81103318	432.25066236	432.69027846	433.12988148	433.56947140	434.00904817	434.44861180	434.88816226	435.32769952	435.76722357	436.20673438	436.64623193	437.08571621	437.52518718	437.96464484	438.40408916	438.84352012	439.28293769	439.72234186	440.16173261	440.60110991	441.04047374	441.47982409	441.91916092	442.35848423	442.79779399	443.23709018	443.67637277	444.11564175	444.55489710	444.99413879	445.43336681	445.87258112	446.31178172	446.75096859	447.19014169	447.62930101	448.06844652	448.50757822	448.94669607	449.38580005	449.82489015	450.26396634	450.70302861	451.14207692	451.58111127	452.02013162	452.45913797	452.89813028	453.33710853	453.77607271	454.21502280	454.65395877	455.09288060	455.53178827	455.97068177	456.40956106	456.84842613	457.28727696	457.72611352	458.16493580	458.60374377	459.04253742	459.48131672	459.92008165	460.35883219	460.79756833	461.23629003	461.67499727	462.11369005	462.55236833	462.99103209	463.42968132	463.86831599	464.30693609	464.74554158	465.18413245	465.62270869	466.06127026	466.49981714	466.93834933	467.37686678	467.81536949	468.25385744	468.69233060	469.13078894	469.56923246	470.00766113	470.44607492	470.88447382	471.32285781	471.76122687	472.19958096	472.63792008	473.07624421	473.51455331	473.95284737	474.39112638	474.82939030	475.26763912	475.70587281	476.14409136	476.58229475	477.02048295	477.45865594	477.89681370	478.33495621	478.77308345	479.21119540	479.64929204	480.08737335	480.52543930	480.96348987	481.40152505	481.83954481	482.27754913	482.71553800	483.15351138	483.59146926	484.02941162	484.46733844	484.90524969	485.34314536	485.78102542	486.21888985	486.65673864	487.09457175	487.53238918	487.97019090	488.40797688	488.84574711	489.28350157	489.72124023	490.15896307	490.59667008	491.03436123	491.47203651	491.90969588	492.34733933	492.78496684	493.22257839	493.66017395	494.09775351	494.53531704	494.97286453	495.41039594	495.84791127	496.28541049	496.72289358	497.16036052	497.59781129	498.03524586	498.47266422	498.91006634	499.34745220	499.78482179	500.22217508	500.65951205	501.09683268	501.53413695	501.97142484	502.40869632	502.84595138	503.28318999	503.72041214	504.15761780	504.59480695	505.03197957	505.46913564	505.90627514	506.34339805	506.78050435	507.21759401	507.65466702	508.09172335	508.52876298	508.96578590	509.40279208	509.83978149	510.27675413	510.71370997	511.15064898	511.58757115	512.02447645	512.46136487	512.89823638	513.33509096	513.77192859	514.20874926	514.64555293	515.08233959	515.51910922	515.95586180	516.39259730	516.82931571	517.26601699	517.70270115	518.13936814	518.57601795	519.01265057	519.44926596	519.88586411	520.32244499	520.75900860	521.19555489	521.63208386	522.06859549	522.50508974	522.94156661	523.37802606	523.81446808	524.25089266	524.68729975	525.12368936	525.56006145	525.99641600	526.43275300	526.86907242	527.30537424	527.74165844	528.17792499	528.61417389	529.05040510	529.48661861	529.92281440	530.35899244	530.79515271	531.23129519	531.66741987	532.10352671	532.53961571	532.97568683	533.41174006	533.84777538	534.28379276	534.71979219	535.15577364	535.59173709	536.02768252	536.46360992	536.89951925	537.33541050	537.77128365	538.20713868	538.64297556	539.07879428	539.51459481	539.95037713	540.38614123	540.82188707	541.25761465	541.69332393	542.12901490	542.56468754	543.00034182	543.43597773	543.87159524	544.30719434	544.74277500	545.17833719	545.61388091	546.04940613	546.48491283	546.92040098	547.35587057	547.79132157	548.22675397	548.66216774	549.09756286	549.53293931	549.96829708	550.40363613	550.83895645	551.27425802	551.70954081	552.14480481	552.58005000	553.01527634	553.45048383	553.88567245	554.32084216	554.75599295	555.19112480	555.62623768	556.06133159	556.49640649	556.93146236	557.36649919	557.80151695	558.23651562	558.67149518	559.10645561	559.54139689	559.97631900	560.41122191	560.84610561	561.28097008	561.71581529	562.15064122	562.58544785	563.02023517	563.45500314	563.88975175	564.32448098	564.75919081	565.19388122	565.62855217	566.06320367	566.49783567	566.93244817	567.36704114	567.80161456	568.23616841	568.67070266	569.10521730	569.53971231	569.97418767	570.40864335	570.84307933	571.27749559	571.71189212	572.14626889	572.58062587	573.01496305	573.44928042	573.88357793	574.31785559	574.75211335	575.18635121	575.62056915	576.05476713	576.48894515	576.92310317	577.35724118	577.79135917	578.22545709	578.65953495	579.09359270	579.52763035	579.96164785	580.39564520	580.82962236	581.26357933	581.69751608	582.13143258	582.56532882	582.99920478	583.43306043	583.86689575	584.30071073	584.73450534	585.16827956	585.60203337	586.03576675	586.46947968	586.90317213	587.33684409	587.77049554	588.20412645	588.63773680	589.07132658	589.50489576	589.93844431	590.37197223	590.80547948	591.23896606	591.67243193	592.10587707	592.53930147	592.97270510	593.40608794	593.83944998	594.27279118	594.70611154	595.13941102	595.57268961	596.00594729	596.43918403	596.87239982	597.30559463	597.73876845	598.17192124	598.60505300	599.03816370	599.47125331	599.90432182	600.33736921	600.77039546	601.20340054	601.63638443	602.06934712	602.50228858	602.93520879	603.36810773	603.80098538	604.23384171	604.66667672	605.09949037	605.53228264	605.96505352	606.39780298	606.83053101	607.26323757	607.69592266	608.12858624	608.56122830	608.99384882	609.42644778	609.85902515	610.29158092	610.72411506	611.15662755	611.58911837	612.02158750	612.45403492	612.88646062	613.31886455	613.75124672	614.18360709	614.61594564	615.04826236	615.48055722	615.91283021	616.34508129	616.77731045	617.20951767	617.64170293	618.07386621	618.50600748	618.93812673	619.37022393	619.80229906	620.23435210	620.66638304	621.09839184	621.53037850	621.96234298	622.39428527	622.82620535	623.25810319	623.68997877	624.12183208	624.55366309	624.98547178	625.41725813	625.84902212	626.28076372	626.71248293	627.14417971	627.57585404	628.00750591	628.43913530	628.87074217	629.30232652	629.73388832	630.16542754	630.59694418	631.02843820	631.45990959	631.89135832	632.32278438	632.75418775	633.18556839	633.61692630	634.04826144	634.47957381	634.91086337	635.34213012	635.77337401	636.20459505	636.63579320	637.06696844	637.49812076	637.92925013	638.36035652	638.79143993	639.22250033	639.65353769	640.08455200	640.51554324	640.94651138	641.37745641	641.80837830	642.23927703	642.67015258	643.10100493	643.53183407	643.96263996	644.39342258	644.82418192	645.25491796	645.68563067	646.11632004	646.54698603	646.97762864	647.40824784	647.83884361	648.26941593	648.69996477	649.13049012	649.56099195	649.99147025	650.42192500	650.85235616	651.28276373	651.71314767	652.14350798	652.57384463	653.00415759	653.43444685	653.86471238	654.29495417	654.72517219	655.15536643	655.58553686	656.01568345	656.44580620	656.87590508	657.30598006	657.73603113	658.16605827	658.59606145	659.02604066	659.45599587	659.88592706	660.31583421	660.74571730	661.17557631	661.60541121	662.03522200	662.46500864	662.89477112	663.32450941	663.75422349	664.18391334	664.61357895	665.04322029	665.47283733	665.90243007	666.33199847	666.76154252	667.19106219	667.62055747	668.05002833	668.47947475	668.90889671	669.33829420	669.76766718	670.19701564	670.62633956	671.05563892	671.48491369	671.91416386	672.34338940	672.77259029	673.20176651	673.63091805	674.06004487	674.48914696	674.91822430	675.34727687	675.77630464	676.20530760	676.63428572	677.06323899	677.49216737	677.92107086	678.34994943	678.77880305	679.20763171	679.63643539	680.06521407	680.49396772	680.92269633	681.35139987	681.78007832	682.20873166	682.63735987	683.06596293	683.49454082	683.92309351	684.35162100	684.78012324	685.20860023	685.63705195	686.06547837	686.49387946	686.92225522	687.35060562	687.77893064	688.20723025	688.63550444	689.06375319	689.49197647	689.92017426	690.34834654	690.77649330	691.20461451	691.63271015	692.06078019	692.48882463	692.91684343	693.34483657	693.77280404	694.20074582	694.62866187	695.05655219	695.48441675	695.91225553	696.34006851	696.76785567	697.19561698	697.62335243	698.05106199	698.47874565	698.90640338	699.33403516	699.76164097	700.18922080	700.61677461	701.04430239	701.47180412	701.89927977	702.32672933	702.75415277	703.18155008	703.60892123	704.03626620	704.46358497	704.89087751	705.31814382	705.74538387	706.17259763	706.59978508	707.02694621	707.45408100	707.88118941	708.30827144	708.73532706	709.16235625	709.58935898	710.01633525	710.44328502	710.87020827	711.29710499	711.72397516	712.15081874	712.57763573	713.00442610	713.43118983	713.85792690	714.28463728	714.71132096	715.13797792	715.56460814	715.99121158	716.41778824	716.84433809	717.27086111	717.69735729	718.12382659	718.55026900	718.97668449	719.40307305	719.82943466	720.25576929	720.68207693	721.10835754	721.53461112	721.96083764	722.38703707	722.81320941	723.23935462	723.66547269	724.09156359	724.51762731	724.94366382	725.36967311	725.79565514	726.22160991	726.64753738	727.07343755	727.49931038	727.92515585	728.35097396	728.77676466	729.20252795	729.62826381	730.05397220	730.47965312	730.90530653	731.33093243	731.75653078	732.18210157	732.60764477	733.03316037	733.45864834	733.88410867	734.30954132	734.73494629	735.16032355	735.58567308	736.01099485	736.43628885	736.86155506	737.28679345	737.71200401	738.13718671	738.56234153	738.98746845	739.41256745	739.83763852	740.26268162	740.68769673	741.11268385	741.53764293	741.96257398	742.38747695	742.81235184	743.23719862	743.66201727	744.08680777	744.51157009	744.93630423	745.36101015	745.78568784	746.21033727	746.63495842	747.05955128	747.48411582	747.90865202	748.33315985	748.75763931	749.18209037	749.60651300	750.03090718	750.45527291	750.87961014	751.30391887	751.72819907	752.15245072	752.57667380	753.00086829	753.42503417	753.84917141	754.27328000	754.69735991	755.12141113	755.54543363	755.96942740	756.39339240	756.81732862	757.24123605	757.66511465	758.08896441	758.51278530	758.93657731	759.36034042	759.78407459	760.20777982	760.63145608	761.05510335	761.47872161	761.90231084	762.32587102	762.74940212	763.17290413	763.59637702	764.01982077	764.44323537	764.86662079	765.28997701	765.71330401	766.13660176	766.55987026	766.98310947	767.40631938	767.82949996	768.25265119	768.67577306	769.09886554	769.52192861	769.94496225	770.36796644	770.79094115	771.21388638	771.63680209	772.05968826	772.48254488	772.90537192	773.32816936	773.75093718	774.17367536	774.59638389	775.01906273	775.44171186	775.86433128	776.28692094	776.70948085	777.13201096	777.55451127	777.97698175	778.39942238	778.82183313	779.24421400	779.66656495	780.08888597	780.51117704	780.93343813	781.35566922	781.77787029	782.20004133	782.62218231	783.04429320	783.46637400	783.88842467	784.31044520	784.73243556	785.15439574	785.57632571	785.99822545	786.42009495	786.84193418	787.26374311	787.68552174	788.10727003	788.52898797	788.95067553	789.37233270	789.79395946	790.21555577	790.63712163	791.05865701	791.48016189	791.90163624	792.32308006	792.74449331	793.16587598	793.58722804	794.00854948	794.42984027	794.85110039	795.27232983	795.69352855	796.11469654	796.53583378	796.95694025	797.37801592	797.79906078	798.22007481	798.64105797	799.06201026	799.48293165	799.90382212
593.54000000	595.84000000	593.54000000	595.08000000	593.98000000	595.17000000	595.77000000	595.57000000	595.36000000	594.47000000	594.45000000	595.84000000	594.96000000	594.17000000	591.98000000	596.64000000	595.91000000	592.76000000	594.06000000	595.45000000	593.27000000	595.08000000	593.00000000	592.09000000	592.20000000	594.09000000	595.27000000	592.59000000	595.05000000	596.23000000	595.09000000	593.28000000	595.19000000	595.59000000	594.39000000	594.54000000	595.10000000	591.85000000	593.06000000	594.92000000	594.52000000	593.65000000	594.97000000	595.20000000	593.21000000	595.54000000	593.50000000	594.92000000	593.31000000	594.82000000	595.40000000	595.58000000	594.94000000	592.09000000	594.18000000	594.85000000	594.36000000	594.16000000	595.48000000	595.81000000	595.68000000	592.82000000	592.52000000	592.58000000	594.62000000	593.24000000	594.53000000	594.31000000	597.53000000	594.54000000	595.03000000	593.87000000	592.63000000	594.79000000	594.51000000	594.35000000	593.76000000	597.17000000	594.27000000	592.40000000	593.98000000	593.21000000	594.91000000	593.05000000	594.11000000	592.82000000	594.94000000	595.79000000	594.23000000	596.84000000	595.90000000	594.23000000	593.19000000	592.79000000	594.38000000	591.98000000	594.34000000	594.07000000	595.01000000	594.25000000	592.91000000	594.96000000	592.45000000	594.64000000	594.16000000	594.07000000	595.46000000	594.76000000	595.52000000	594.50000000	593.77000000	594.18000000	594.94000000	592.87000000	594.84000000	595.31000000	593.48000000	593.73000000	592.47000000	595.12000000	595.44000000	594.21000000	596.12000000	594.02000000	595.81000000	595.18000000	593.81000000	595.75000000	595.12000000	594.73000000	596.31000000	595.86000000	593.40000000	596.25000000	593.66000000	594.68000000	594.46000000	596.96000000	595.89000000	593.63000000	595.47000000	594.59000000	594.13000000	593.13000000	593.26000000	593.13000000	596.48000000	594.75000000	595.52000000	595.68000000	595.34000000	597.01000000	593.49000000	593.27000000	593.33000000	594.25000000	595.14000000	592.96000000	594.69000000	597.04000000	595.46000000	597.00000000	595.44000000	595.37000000	594.86000000	594.62000000	595.19000000	595.59000000	596.60000000	592.40000000	596.80000000	591.67000000	594.58000000	594.10000000	593.42000000	595.47000000	593.61000000	594.09000000	596.08000000	594.51000000	594.47000000	595.09000000	596.73000000	594.58000000	594.43000000	595.81000000	595.23000000	594.89000000	594.95000000	593.07000000	596.91000000	592.61000000	595.16000000	594.61000000	593.23000000	595.07000000	593.32000000	593.91000000	596.54000000	595.28000000	591.89000000	594.23000000	595.18000000	596.16000000	593.44000000	595.64000000	595.86000000	593.38000000	597.30000000	597.43000000	595.18000000	595.23000000	594.18000000	594.86000000	595.23000000	594.70000000	594.81000000	595.16000000	597.02000000	596.33000000	596.04000000	597.84000000	596.94000000	595.02000000	594.05000000	594.39000000	596.16000000	593.59000000	594.93000000	594.41000000	597.97000000	597.06000000	592.23000000	594.70000000	594.89500000	595.09000000	594.43000000	595.16000000	596.09000000	596.63000000	595.84000000	593.81000000	595.60000000	595.62000000	595.84000000	595.88000000	594.79000000	596.73000000	593.89000000	596.56000000	596.17000000	592.82000000	593.50000000	593.54000000	594.83000000	594.82000000	593.98000000	600.40000000	594.43000000	596.59000000	593.12000000	594.24000000	596.63000000	595.45000000	594.03000000	593.89000000	595.90000000	594.56000000	595.98000000	594.61000000	595.98000000	592.69000000	595.13000000	597.23000000	596.49000000	595.05000000	595.48000000	595.09000000	597.28000000	595.86000000	594.55000000	594.39000000	596.37000000	596.10000000	593.09000000	596.50000000	595.79000000	593.54000000	595.48000000	597.60000000	595.07000000	596.66000000	597.28000000	596.50000000	597.92000000	596.32000000	596.27000000	593.83000000	598.87000000	597.85000000	597.58000000	595.92000000	596.75000000	596.49000000	596.48000000	595.60000000	595.06000000	595.34000000	596.85000000	596.18000000	595.27000000	596.62000000	597.55000000	596.16000000	596.54000000	595.45000000	595.66000000	596.20000000	595.79000000	594.59000000	597.45000000	593.97000000	595.74000000	592.61000000	595.04000000	594.21000000	595.14000000	596.93000000	598.11000000	597.50000000	596.97000000	595.04000000	595.82000000	596.62000000	593.59000000	598.19000000	595.87000000	597.39000000	598.75000000	596.61000000	597.81000000	596.02000000	596.37000000	594.41000000	595.35000000	596.16000000	597.75000000	598.00000000	598.72000000	598.30000000	598.15000000	594.63000000	595.69000000	595.49000000	596.37000000	597.96000000	596.11000000	598.57000000	596.50000000	596.70000000	593.40000000	597.32000000	595.88000000	597.52000000	598.16000000	596.86000000	600.57000000	596.09000000	597.55000000	598.07000000	596.54000000	596.83000000	596.96000000	596.95000000	597.82000000	596.75000000	597.70000000	598.11000000	596.12000000	595.64000000	595.81000000	594.47000000	596.95000000	597.45000000	598.07000000	598.13000000	598.55000000	598.65000000	600.17000000	596.95000000	598.35000000	598.34000000	594.74000000	596.46000000	595.84000000	600.81000000	597.34000000	599.69000000	598.78000000	600.32000000	597.62000000	595.82000000	596.88000000	596.37000000	599.18000000	596.45000000	599.58000000	598.16000000	596.74000000	598.71000000	599.25000000	600.55000000	599.02000000	598.00000000	599.32000000	600.12000000	598.25000000	597.42000000	597.82000000	598.96000000	597.08000000	600.28000000	598.28000000	600.75000000	599.97000000	599.39000000	602.03000000	598.54000000	600.15000000	598.95000000	598.88000000	598.53000000	596.35000000	599.03000000	599.80000000	600.73000000	596.96000000	600.01000000	600.60000000	600.03000000	601.06000000	599.35000000	599.87000000	597.58000000	599.70000000	599.94000000	600.06000000	601.77000000	602.54000000	599.85000000	600.03000000	597.77000000	600.17000000	598.33000000	600.95000000	601.05000000	598.85000000	599.46000000	599.77000000	600.69000000	600.61000000	599.94000000	602.99000000	599.14000000	597.38000000	602.28000000	603.19000000	600.71000000	599.31000000	601.22000000	600.55000000	599.39000000	598.64000000	600.42000000	601.10000000	602.69000000	602.33000000	601.80000000	599.80000000	600.49000000	597.08000000	602.66000000	599.51000000	602.27000000	602.23000000	598.83000000	603.61000000	599.27000000	602.17000000	599.18000000	600.91000000	600.79000000	598.97000000	603.59000000	600.79000000	603.21000000	600.27000000	600.43000000	601.97000000	602.08000000	601.80000000	601.44000000	603.93000000	601.94000000	601.89000000	603.38000000	603.89000000	601.19000000	600.40000000	603.11000000	600.94000000	601.10000000	599.55000000	600.94000000	602.03000000	603.53000000	602.59000000	604.68000000	603.32000000	604.11000000	601.06000000	600.66000000	605.54000000	603.82000000	602.57000000	602.24000000	603.87000000	600.78000000	600.72000000	600.52000000	603.40000000	603.45000000	602.74000000	605.81000000	605.02000000	603.88000000	603.12000000	602.21000000	603.25000000	603.61000000	603.79000000	605.24000000	602.43000000	601.77000000	603.85000000	604.72000000	605.60000000	602.58000000	602.26000000	605.62000000	601.21000000	603.20000000	602.73000000	606.90000000	604.09000000	603.42000000	602.45000000	604.50000000	604.31000000	603.01000000	606.06000000	603.93000000	604.98000000	603.45000000	604.66000000	604.12000000	605.58000000	604.95000000	607.18000000	603.97000000	604.61000000	604.09000000	605.14000000	608.03000000	603.87000000	606.92000000	605.67000000	606.23000000	603.21000000	605.02000000	602.88000000	603.42000000	604.33000000	604.60000000	604.40000000	605.33000000	604.06000000	603.82000000	604.75000000	605.01000000	603.72000000	603.62000000	603.76000000	606.09000000	605.38000000	604.79000000	607.40000000	604.44000000	605.29000000	603.93000000	605.24000000	605.09000000	604.71000000	604.96000000	604.63000000	605.35000000	605.81000000	603.27000000	604.58000000	605.01000000	607.37000000	604.12000000	603.87000000	607.39000000	604.94000000	606.78000000	605.13000000	603.97000000	603.92000000	602.50000000	603.59000000	603.51000000	607.12000000	604.29000000	606.38000000	606.77000000	607.64000000	605.67000000	606.01000000	606.21000000	603.68000000	607.73000000	606.96000000	605.36000000	603.60000000	605.84000000	607.25000000	605.54000000	601.86000000	603.84000000	607.60000000	605.93000000	607.84000000	607.34000000	606.40000000	606.94000000	605.78000000	605.17000000	606.91000000	606.03000000	608.41000000	606.97000000	605.80000000	606.41000000	604.98000000	605.93000000	603.16000000	607.32000000	605.67000000	607.93000000	604.88000000	604.02000000	604.82000000	607.41000000	606.88000000	604.31000000	605.54000000	605.17000000	604.93000000	604.63000000	603.80000000	606.71000000	605.99000000	607.52000000	603.30000000	605.78000000	606.95000000	604.27000000	604.88000000	606.05000000	609.47000000	607.40000000	603.99000000	603.60000000	605.48000000	606.67000000	604.36000000	606.60000000	605.91000000	607.54000000	605.18000000	606.21000000	607.80000000	606.90000000	604.69000000	606.21000000	603.40000000	604.38000000	604.30000000	609.06000000	608.56000000	607.91000000	606.91000000	605.65000000	605.23000000	607.45000000	604.15000000	607.64000000	609.51000000	605.49000000	606.54000000	604.67000000	605.24000000	605.87000000	603.96000000	607.65000000	603.81000000	607.47000000	605.09000000	606.54000000	607.32000000	605.99000000	608.44000000	608.41000000	604.70000000	603.41000000	606.17000000	605.72000000	605.32000000	605.77000000	608.18000000	607.09000000	604.95000000	605.12000000	604.63000000	604.93000000	606.40000000	606.58000000	606.89000000	604.77000000	606.97000000	607.76000000	607.91000000	604.37000000	603.08000000	603.39000000	603.11000000	605.37000000	605.72000000	604.69000000	608.71000000	604.22000000	605.17000000	606.12000000	606.39000000	604.57000000	602.90000000	605.12000000	605.54000000	607.46000000	605.18000000	606.26000000	606.92000000	606.59000000	605.81000000	605.21000000	605.00000000	604.14000000	606.51000000	606.80000000	605.86000000	604.69000000	607.41000000	605.25000000	604.56000000	607.87000000	607.89000000	605.94000000	607.90000000	608.85000000	605.86000000	604.40000000	604.92000000	604.50000000	607.11000000	607.20000000	604.90000000	604.67000000	604.55000000	604.19000000	604.90000000	606.90000000	607.79000000	605.21000000	607.05000000	603.29000000	604.76000000	607.86000000	605.61000000	606.04000000	604.95000000	607.50000000	607.02000000	603.90000000	603.77000000	604.44000000	605.74000000	604.30000000	604.43000000	606.43000000	604.65000000	604.84000000	602.94000000	606.94000000	605.39000000	604.11000000	603.42000000	606.09000000	604.79000000	605.02000000	607.14000000	606.34000000	603.97000000	602.50000000	604.24000000	604.07000000	605.28000000	606.94000000	605.71000000	604.90000000	606.62000000	605.80000000	608.49000000	605.68000000	602.18000000	604.16000000	606.09000000	604.73000000	603.79000000	604.87000000	605.03000000	607.27000000	604.59000000	603.06000000	602.42000000	605.19000000	605.36000000	604.41000000	603.71000000	605.71000000	604.99000000	605.30000000	604.05000000	606.96000000	606.04000000	603.72000000	605.76000000	603.34000000	605.47000000	606.19000000	604.03000000	605.98000000	604.40000000	604.97000000	604.79000000	603.14000000	606.04000000	605.71000000	606.69000000	604.37000000	606.82000000	605.38000000	603.27000000	604.37000000	602.41000000	605.54000000	602.51000000	606.30000000	605.81000000	601.41000000	606.01000000	601.53000000	605.54000000	601.73000000	602.86000000	606.15000000	603.79000000	605.83000000	603.70000000	605.75000000	604.63000000	603.70000000	603.80000000	604.38000000	604.51000000	604.64000000	603.15000000	603.93000000	602.92000000	601.75000000	602.43000000	603.34000000	604.82000000	603.08000000	604.38000000	603.83000000	605.65000000	604.04000000	606.97000000	605.45000000	604.80000000	604.68000000	603.84000000	604.98000000	600.11000000	603.38000000	605.08000000	603.57000000	603.44000000	607.62000000	603.94000000	605.79000000	602.59000000	603.97000000	604.41000000	602.85000000	604.03000000	603.58000000	605.14000000	602.96000000	601.73000000	601.49000000	605.78000000	603.49000000	603.08000000	603.75000000	605.56000000	604.27000000	604.67000000	603.63000000	605.75000000	603.15000000	602.18000000	603.35000000	603.82000000	603.22000000	601.60000000	603.01000000	603.25000000	604.28000000	604.64000000	602.92000000	606.01000000	604.62000000	602.93000000	600.82000000	601.04000000	604.18000000	602.26000000	603.91000000	604.13000000	604.60000000	603.37000000	602.91000000	603.83000000	605.67000000	603.87000000	602.08000000	605.07000000	605.67000000	600.22000000	601.85000000	604.84000000	603.14000000	600.61000000	602.91000000	602.95000000	604.58000000	605.99000000	602.23000000	605.22000000	600.63000000	603.68000000	604.13000000	602.51000000	602.37000000	603.92000000	604.67000000	601.88000000	603.12000000	602.90000000	604.04000000	600.56000000	603.75000000	602.85000000	603.04000000	602.09000000	603.82000000	604.64000000	602.86000000	603.80000000	604.36000000	603.47000000	600.06000000	601.53000000	602.98000000	602.51000000	602.98000000	600.97000000	603.97000000	605.10000000	602.52000000	603.71000000	602.25000000	604.57000000	602.85000000	602.94000000	603.91000000	601.79000000	603.88000000	602.96000000	603.01000000	602.48000000	602.02000000	602.74000000	600.37000000	603.96000000	601.94000000	602.26000000	603.34000000	600.12000000	604.15000000	602.69000000	604.28000000	601.49000000	603.74000000	602.53000000	602.26000000	600.94000000
